{
  "resourceType": "CarePlan",
  "id": "f203",
  "text": {
    "status": "generated",
    "div": "<div xmlns=\"http://www.w3.org/1999/xhtml\"><p><b>Generated Narrative with Details</b></p><p><b>id</b>: f203</p><p><b>contained</b>: , </p><p><b>status</b>: completed</p><p><b>intent</b>: plan</p><p><b>subject</b>: <a>Roel</a></p><p><b>period</b>: 14/04/2013 --&gt; 21/04/2013</p><p><b>careTeam</b>: id: careteam</p><p><b>addresses</b>: <a>Roel's sepsis</a></p><p><b>goal</b>: id: goal; status: cancelled; Check whether further treatment of sepsis/pulmonary abcess is required <span>(Details )</span>; Roel</p><blockquote><p><b>activity</b></p><h3>Details</h3><table><tr><td>-</td><td><b>Category</b></td><td><b>Code</b></td><td><b>Status</b></td><td><b>Prohibited</b></td></tr><tr><td>*</td><td>Observation <span>(Details : {http://hl7.org/fhir/care-plan-activity-category code 'observation' = 'Observation)</span></td><td>High resolution computed tomography of lungs <span>(Details : {SNOMED CT code '241541005' = 'High resolution CT of lungs', given as 'High resolution computed tomography of lungs'})</span></td><td>not-started</td><td>false</td></tr></table></blockquote></div>"
  },
  "contained": [
    {
      "resourceType": "CareTeam",
      "id": "careteam",
      "participant": [
        {
          "role": {
            "coding": [
              {
                "system": "http://snomed.info/sct",
                "code": "425268008",
                "display": "Review of care plan"
              }
            ]
          },
          "member": {
            "reference": "Practitioner/f201",
            "display": "Dokter Bronsig"
          }
        },
        {
          "role": {
            "coding": [
              {
                "system": "http://snomed.info/sct",
                "code": "278110001",
                "display": "Radiographic imaging"
              }
            ]
          },
          "member": {
            "reference": "Practitioner/f202",
            "display": "Luigi Maas"
          }
        }
      ]
    },
    {
      "resourceType": "Goal",
      "id": "goal",
      "status": "cancelled",
      "description": {
        "text": "Check whether further treatment of sepsis/pulmonary abcess is required"
      },
      "subject": {
        "reference": "Patient/f201",
        "display": "Roel"
      }
    }
  ],
  "status": "completed",
  "intent": "plan",
  "subject": {
    "reference": "Patient/f201",
    "display": "Roel"
  },
  "period": {
    "start": "2013-04-14",
    "end": "2013-04-21"
  },
  "careTeam": [
    {
      "reference": "#careteam"
    }
  ],
  "addresses": [
    {
      "reference": "Condition/f203",
      "display": "Roel's sepsis"
    }
  ],
  "goal": [
    {
      "reference": "#goal"
    }
  ],
  "activity": [
    {
      "detail": {
        "category": {
          "coding": [
            {
              "system": "http://hl7.org/fhir/care-plan-activity-category",
              "code": "observation"
            }
          ]
        },
        "code": {
          "coding": [
            {
              "system": "http://snomed.info/sct",
              "code": "241541005",
              "display": "High resolution computed tomography of lungs"
            }
          ]
        },
        "status": "not-started",
        "prohibited": false
      }
    }
  ]
}