{
  "resourceType": "Bundle",
  "id": "ussg-fht",
  "type": "transaction",
  "entry": [
    {
      "fullUrl": "http://hl7.org/fhir/us/sdc/ConceptMap/ussgfht-loincde",
      "resource": {
        "resourceType": "ConceptMap",
        "id": "ussgfht-loincde",
        "text": {
          "status": "generated",
          "div": "<div xmlns=\"http://www.w3.org/1999/xhtml\"><p><b>Generated Narrative with Details</b></p><p><b>id</b>: ussgfht-loincde</p><p><b>status</b>: active</p><p><b>source</b>: <a>http://hl7.org/fhir/us/sdc/Questionnaire/54127-6</a></p><p><b>target</b>: <a>http://hl7.org/fhir/us/sdc/DataElement</a></p><blockquote><p><b>group</b></p><p><b>source</b>: <a>http://hl7.org/fhir</a></p><p><b>target</b>: <a>http://loinc.org</a></p><blockquote><p><b>element</b></p><p><b>code</b>: 1.1.1</p><h3>Targets</h3><table><tr><td>-</td><td><b>Code</b></td></tr><tr><td>*</td><td>54125-0</td></tr></table></blockquote><blockquote><p><b>element</b></p><p><b>code</b>: 1.1.2</p><h3>Targets</h3><table><tr><td>-</td><td><b>Code</b></td></tr><tr><td>*</td><td>54131-8</td></tr></table></blockquote><blockquote><p><b>element</b></p><p><b>code</b>: 1.1.3</p><h3>Targets</h3><table><tr><td>-</td><td><b>Code</b></td></tr><tr><td>*</td><td>21112-8</td></tr></table></blockquote><blockquote><p><b>element</b></p><p><b>code</b>: 1.1.4</p><h3>Targets</h3><table><tr><td>-</td><td><b>Code</b></td></tr><tr><td>*</td><td>54132-6</td></tr></table></blockquote><blockquote><p><b>element</b></p><p><b>code</b>: 1.1.5</p><h3>Targets</h3><table><tr><td>-</td><td><b>Code</b></td></tr><tr><td>*</td><td>54128-4</td></tr></table></blockquote><blockquote><p><b>element</b></p><p><b>code</b>: 1.1.6</p><h3>Targets</h3><table><tr><td>-</td><td><b>Code</b></td></tr><tr><td>*</td><td>54135-9</td></tr></table></blockquote><blockquote><p><b>element</b></p><p><b>code</b>: 1.1.7</p><h3>Targets</h3><table><tr><td>-</td><td><b>Code</b></td></tr><tr><td>*</td><td>8302-2</td></tr></table></blockquote><blockquote><p><b>element</b></p><p><b>code</b>: 1.1.8</p><h3>Targets</h3><table><tr><td>-</td><td><b>Code</b></td></tr><tr><td>*</td><td>29463-7</td></tr></table></blockquote><blockquote><p><b>element</b></p><p><b>code</b>: 1.1.10</p><h3>Targets</h3><table><tr><td>-</td><td><b>Code</b></td></tr><tr><td>*</td><td>54134-2</td></tr></table></blockquote><blockquote><p><b>element</b></p><p><b>code</b>: 1.1.11</p><h3>Targets</h3><table><tr><td>-</td><td><b>Code</b></td></tr><tr><td>*</td><td>54133-4</td></tr></table></blockquote><blockquote><p><b>element</b></p><p><b>code</b>: 1.2.1</p><h3>Targets</h3><table><tr><td>-</td><td><b>Code</b></td></tr><tr><td>*</td><td>54140-9</td></tr></table></blockquote><blockquote><p><b>element</b></p><p><b>code</b>: 1.2.2</p><h3>Targets</h3><table><tr><td>-</td><td><b>Code</b></td></tr><tr><td>*</td><td>54130-0</td></tr></table></blockquote><blockquote><p><b>element</b></p><p><b>code</b>: 2.1.1.1</p><h3>Targets</h3><table><tr><td>-</td><td><b>Code</b></td></tr><tr><td>*</td><td>54136-7</td></tr></table></blockquote><blockquote><p><b>element</b></p><p><b>code</b>: 2.1.1.2</p><h3>Targets</h3><table><tr><td>-</td><td><b>Code</b></td></tr><tr><td>*</td><td>54138-3</td></tr></table></blockquote><blockquote><p><b>element</b></p><p><b>code</b>: 2.1.1.3</p><h3>Targets</h3><table><tr><td>-</td><td><b>Code</b></td></tr><tr><td>*</td><td>54123-5</td></tr></table></blockquote><blockquote><p><b>element</b></p><p><b>code</b>: 2.1.1.4</p><h3>Targets</h3><table><tr><td>-</td><td><b>Code</b></td></tr><tr><td>*</td><td>54139-1</td></tr></table></blockquote><blockquote><p><b>element</b></p><p><b>code</b>: 2.1.1.4.1.1</p><h3>Targets</h3><table><tr><td>-</td><td><b>Code</b></td></tr><tr><td>*</td><td>54112-8</td></tr></table></blockquote><blockquote><p><b>element</b></p><p><b>code</b>: 2.1.1.4.1.2</p><h3>Targets</h3><table><tr><td>-</td><td><b>Code</b></td></tr><tr><td>*</td><td>54113-6</td></tr></table></blockquote><blockquote><p><b>element</b></p><p><b>code</b>: 2.1.1.4.2.1</p><h3>Targets</h3><table><tr><td>-</td><td><b>Code</b></td></tr><tr><td>*</td><td>54124-3</td></tr></table></blockquote><blockquote><p><b>element</b></p><p><b>code</b>: 2.1.1.4.2.2</p><h3>Targets</h3><table><tr><td>-</td><td><b>Code</b></td></tr><tr><td>*</td><td>54141-7</td></tr></table></blockquote><blockquote><p><b>element</b></p><p><b>code</b>: 2.1.1.5</p><h3>Targets</h3><table><tr><td>-</td><td><b>Code</b></td></tr><tr><td>*</td><td>54121-9</td></tr></table></blockquote><blockquote><p><b>element</b></p><p><b>code</b>: 2.1.1.6</p><h3>Targets</h3><table><tr><td>-</td><td><b>Code</b></td></tr><tr><td>*</td><td>54122-7</td></tr></table></blockquote><blockquote><p><b>element</b></p><p><b>code</b>: 2.1.1.7</p><h3>Targets</h3><table><tr><td>-</td><td><b>Code</b></td></tr><tr><td>*</td><td>54119-3</td></tr></table></blockquote><blockquote><p><b>element</b></p><p><b>code</b>: 2.1.1.8</p><h3>Targets</h3><table><tr><td>-</td><td><b>Code</b></td></tr><tr><td>*</td><td>54120-1</td></tr></table></blockquote><blockquote><p><b>element</b></p><p><b>code</b>: 2.1.2.1</p><h3>Targets</h3><table><tr><td>-</td><td><b>Code</b></td></tr><tr><td>*</td><td>54116-9</td></tr></table></blockquote><blockquote><p><b>element</b></p><p><b>code</b>: 2.1.2.2</p><h3>Targets</h3><table><tr><td>-</td><td><b>Code</b></td></tr><tr><td>*</td><td>54115-1</td></tr></table></blockquote></blockquote></div>"
        },
        "status": "active",
        "sourceUri": "http://hl7.org/fhir/us/sdc/Questionnaire/54127-6",
        "targetUri": "http://hl7.org/fhir/us/sdc/DataElement",
        "group": [
          {
            "source": "http://hl7.org/fhir",
            "target": "http://loinc.org",
            "element": [
              {
                "code": "1.1.1",
                "target": [
                  {
                    "code": "54125-0"
                  }
                ]
              },
              {
                "code": "1.1.2",
                "target": [
                  {
                    "code": "54131-8"
                  }
                ]
              },
              {
                "code": "1.1.3",
                "target": [
                  {
                    "code": "21112-8"
                  }
                ]
              },
              {
                "code": "1.1.4",
                "target": [
                  {
                    "code": "54132-6"
                  }
                ]
              },
              {
                "code": "1.1.5",
                "target": [
                  {
                    "code": "54128-4"
                  }
                ]
              },
              {
                "code": "1.1.6",
                "target": [
                  {
                    "code": "54135-9"
                  }
                ]
              },
              {
                "code": "1.1.7",
                "target": [
                  {
                    "code": "8302-2"
                  }
                ]
              },
              {
                "code": "1.1.8",
                "target": [
                  {
                    "code": "29463-7"
                  }
                ]
              },
              {
                "code": "1.1.10",
                "target": [
                  {
                    "code": "54134-2"
                  }
                ]
              },
              {
                "code": "1.1.11",
                "target": [
                  {
                    "code": "54133-4"
                  }
                ]
              },
              {
                "code": "1.2.1",
                "target": [
                  {
                    "code": "54140-9"
                  }
                ]
              },
              {
                "code": "1.2.2",
                "target": [
                  {
                    "code": "54130-0"
                  }
                ]
              },
              {
                "code": "2.1.1.1",
                "target": [
                  {
                    "code": "54136-7"
                  }
                ]
              },
              {
                "code": "2.1.1.2",
                "target": [
                  {
                    "code": "54138-3"
                  }
                ]
              },
              {
                "code": "2.1.1.3",
                "target": [
                  {
                    "code": "54123-5"
                  }
                ]
              },
              {
                "code": "2.1.1.4",
                "target": [
                  {
                    "code": "54139-1"
                  }
                ]
              },
              {
                "code": "2.1.1.4.1.1",
                "target": [
                  {
                    "code": "54112-8"
                  }
                ]
              },
              {
                "code": "2.1.1.4.1.2",
                "target": [
                  {
                    "code": "54113-6"
                  }
                ]
              },
              {
                "code": "2.1.1.4.2.1",
                "target": [
                  {
                    "code": "54124-3"
                  }
                ]
              },
              {
                "code": "2.1.1.4.2.2",
                "target": [
                  {
                    "code": "54141-7"
                  }
                ]
              },
              {
                "code": "2.1.1.5",
                "target": [
                  {
                    "code": "54121-9"
                  }
                ]
              },
              {
                "code": "2.1.1.6",
                "target": [
                  {
                    "code": "54122-7"
                  }
                ]
              },
              {
                "code": "2.1.1.7",
                "target": [
                  {
                    "code": "54119-3"
                  }
                ]
              },
              {
                "code": "2.1.1.8",
                "target": [
                  {
                    "code": "54120-1"
                  }
                ]
              },
              {
                "code": "2.1.2.1",
                "target": [
                  {
                    "code": "54116-9"
                  }
                ]
              },
              {
                "code": "2.1.2.2",
                "target": [
                  {
                    "code": "54115-1"
                  }
                ]
              }
            ]
          }
        ]
      },
      "request": {
        "method": "PUT",
        "url": "http://hl7.org/fhir/us/sdc/ConceptMap/ussgfht-loincde"
      }
    },
    {
      "fullUrl": "http://hl7.org/fhir/us/sdc/Questionnaire/54127-6",
      "resource": {
        "resourceType": "Questionnaire",
        "id": "54127-6",
        "meta": {
          "profile": [
            "http://hl7.org/fhir/us/sdc/StructureDefinition/sdc-questionnaire"
          ]
        },
        "text": {
          "status": "generated",
          "div": "<div xmlns=\"http://www.w3.org/1999/xhtml\"><p><b>Generated Narrative with Details</b></p><p><b>id</b>: 54127-6</p><p><b>meta</b>: </p><p><b>contained</b>: , </p><p><b>url</b>: <a>http://hl7.org/fhir/us/sdc/Questionnaire/54127-6</a></p><p><b>identifier</b>: 54127-6</p><p><b>title</b>: US Surgeon General - Family Health Portrait</p><p><b>status</b>: active</p><p><b>experimental</b>: true</p><p><b>date</b>: 01/01/2015</p><p><b>publisher</b>: Regenstrief Institute, Inc and the LOINC Committee</p><p><b>description</b>: This represents an implementation of the &quot;US Surgeon General family health portrait&quot; form found at https://lforms-demo.nlm.nih.gov</p><p><b>purpose</b>: Captures basic family history information</p><p><b>approvalDate</b>: 31/10/2015</p><p><b>lastReviewDate</b>: 15/03/2017</p><p><b>useContext</b>: </p><p><b>jurisdiction</b>: United States <span>(Details : {urn:iso:std:iso:3166 code 'US' = 'United States)</span></p><p><b>contact</b>: </p><p><b>copyright</b>: (c) 2015 Regenstrief Institute</p><p><b>code</b>: US Surgeon General family health portrait [USSG-FHT] (Details: LOINC code 54127-6 = 'US Surgeon General family health portrait [USSG-FHT]', stated as 'US Surgeon General family health portrait [USSG-FHT]')</p><p><b>subjectType</b>: Patient</p><blockquote><p><b>item</b></p><p><b>linkId</b>: 0</p><p><b>type</b>: group</p><h3>Items</h3><table><tr><td>-</td></tr><tr><td>*</td></tr><tr><td>*</td></tr><tr><td>*</td></tr><tr><td>*</td></tr></table></blockquote><blockquote><p><b>item</b></p><p><b>linkId</b>: 1</p><p><b>definition</b>: <a>http://loinc.org/fhir/DataElement/54126-8</a></p><p><b>text</b>: Your health information</p><p><b>type</b>: group</p><p><b>required</b>: true</p><h3>Items</h3><table><tr><td>-</td></tr><tr><td>*</td></tr><tr><td>*</td></tr></table></blockquote><blockquote><p><b>item</b></p><p><b>linkId</b>: 2</p><p><b>definition</b>: <a>http://loinc.org/fhir/DataElement/54114-4</a></p><p><b>text</b>: Family member health information</p><p><b>type</b>: group</p><p><b>repeats</b>: true</p><h3>Items</h3><table><tr><td>-</td></tr><tr><td>*</td></tr></table></blockquote></div>"
        },
        "contained": [
          {
            "resourceType": "ValueSet",
            "id": "length",
            "meta": {
              "profile": [
                "http://hl7.org/fhir/us/sdc/StructureDefinition/sdc-valueset"
              ]
            },
            "name": "Length Units",
            "status": "active",
            "description": "Length units",
            "immutable": true,
            "extensible": false,
            "compose": {
              "include": [
                {
                  "system": "http://unitsofmeasure.org",
                  "concept": [
                    {
                      "code": "[in_i]",
                      "display": "inches"
                    },
                    {
                      "code": "cm",
                      "display": "centimeters"
                    }
                  ]
                }
              ]
            }
          },
          {
            "resourceType": "ValueSet",
            "id": "weight",
            "meta": {
              "profile": [
                "http://hl7.org/fhir/us/sdc/StructureDefinition/sdc-valueset"
              ]
            },
            "name": "Weight Units",
            "status": "active",
            "description": "Weight units",
            "immutable": true,
            "extensible": false,
            "compose": {
              "include": [
                {
                  "system": "http://unitsofmeasure.org",
                  "concept": [
                    {
                      "code": "[lb_i]",
                      "display": "pounds"
                    },
                    {
                      "code": "km",
                      "display": "kilograms"
                    }
                  ]
                }
              ]
            }
          }
        ],
        "url": "http://hl7.org/fhir/us/sdc/Questionnaire/54127-6",
        "identifier": [
          {
            "system": "http://example.org/panel-id",
            "value": "54127-6"
          }
        ],
        "title": "US Surgeon General - Family Health Portrait",
        "status": "active",
        "experimental": true,
        "date": "2015",
        "publisher": "Regenstrief Institute, Inc and the LOINC Committee",
        "description": "This represents an implementation of the \"US Surgeon General family health portrait\" form found at https://lforms-demo.nlm.nih.gov",
        "purpose": "Captures basic family history information",
        "approvalDate": "2015-10-31",
        "lastReviewDate": "2017-03-15",
        "useContext": [
          {
            "code": {
              "system": "http://hl7.org/fhir/usage-context-type",
              "code": "species"
            },
            "valueCodeableConcept": {
              "coding": [
                {
                  "system": "http://snomed.info/sct",
                  "code": "337915000",
                  "display": "Homo sapiens"
                }
              ]
            }
          }
        ],
        "jurisdiction": [
          {
            "coding": [
              {
                "system": "urn:iso:std:iso:3166",
                "code": "US"
              }
            ]
          }
        ],
        "contact": [
          {
            "telecom": [
              {
                "system": "url",
                "value": "http://loinc.org"
              }
            ]
          }
        ],
        "copyright": "(c) 2015 Regenstrief Institute",
        "code": [
          {
            "system": "http://loinc.org",
            "code": "54127-6",
            "display": "US Surgeon General family health portrait [USSG-FHT]"
          }
        ],
        "subjectType": [
          "Patient"
        ],
        "item": [
          {
            "linkId": "0",
            "type": "group",
            "item": [
              {
                "linkId": "0.1",
                "text": "Date Done",
                "type": "date"
              },
              {
                "linkId": "0.2",
                "text": "Time Done",
                "type": "time"
              },
              {
                "linkId": "0.3",
                "text": "Where Done",
                "type": "string"
              },
              {
                "linkId": "0.4",
                "text": "Comment",
                "type": "string"
              }
            ]
          },
          {
            "linkId": "1",
            "definition": "http://loinc.org/fhir/DataElement/54126-8",
            "text": "Your health information",
            "type": "group",
            "required": true,
            "item": [
              {
                "linkId": "1.1",
                "type": "group",
                "item": [
                  {
                    "linkId": "1.1.1",
                    "definition": "http://loinc.org/fhir/DataElement/54125-0",
                    "text": "Name",
                    "type": "string",
                    "maxLength": 200
                  },
                  {
                    "linkId": "1.1.2",
                    "definition": "http://loinc.org/fhir/DataElement/54131-8",
                    "text": "Gender",
                    "type": "choice",
                    "required": true,
                    "options": {
                      "reference": "http://hl7.org/fhir/us/sdc/ValueSet/LL1-9",
                      "display": "Gender_M/F"
                    },
                    "item": [
                      {
                        "linkId": "1.1.2.1.1",
                        "text": "Please specify",
                        "type": "string",
                        "required": true
                      }
                    ]
                  },
                  {
                    "linkId": "1.1.3",
                    "definition": "http://loinc.org/fhir/DataElement/21112-8",
                    "text": "Date of Birth",
                    "type": "date"
                  },
                  {
                    "linkId": "1.1.4",
                    "definition": "http://loinc.org/fhir/DataElement/54132-6",
                    "text": "Were you born a twin?",
                    "type": "choice",
                    "options": {
                      "reference": "http://hl7.org/fhir/us/sdc/ValueSet/LL623-0",
                      "display": "USSG-FHT twin"
                    },
                    "initialCoding": {
                      "system": "http://loinc.org",
                      "code": "LA32-8",
                      "display": "No"
                    }
                  },
                  {
                    "linkId": "1.1.5",
                    "definition": "http://loinc.org/fhir/DataElement/54128-4",
                    "text": "Were you adopted?",
                    "type": "choice",
                    "options": {
                      "reference": "http://hl7.org/fhir/us/sdc/ValueSet/LL361-7",
                      "display": "Y/N1"
                    }
                  },
                  {
                    "linkId": "1.1.6",
                    "definition": "http://loinc.org/fhir/DataElement/54135-9",
                    "text": "Are your parents related to each other in any way other than marriage?",
                    "type": "choice",
                    "options": {
                      "reference": "http://hl7.org/fhir/us/sdc/ValueSet/LL361-7",
                      "display": "Y/N1"
                    }
                  },
                  {
                    "linkId": "1.1.7",
                    "definition": "http://loinc.org/fhir/DataElement/8302-2",
                    "text": "Height",
                    "type": "decimal",
                    "required": true,
                    "item": [
                      {
                        "linkId": "1.1.7.1.1",
                        "text": "Units",
                        "type": "choice",
                        "options": {
                          "reference": "#length"
                        }
                      }
                    ]
                  },
                  {
                    "linkId": "1.1.8",
                    "definition": "http://loinc.org/fhir/DataElement/29463-7",
                    "text": "Weight",
                    "type": "decimal",
                    "item": [
                      {
                        "linkId": "1.1.8.1.1",
                        "text": "Units",
                        "type": "choice",
                        "options": {
                          "reference": "#weight"
                        }
                      }
                    ]
                  },
                  {
                    "linkId": "1.1.9",
                    "definition": "http://loinc.org/fhir/DataElement/39156-5",
                    "text": "Body mass index (BMI) [Ratio]",
                    "type": "decimal",
                    "readOnly": true
                  },
                  {
                    "linkId": "1.1.10",
                    "definition": "http://loinc.org/fhir/DataElement/54134-2",
                    "text": "Race",
                    "type": "choice",
                    "required": true,
                    "options": {
                      "reference": "http://hl7.org/fhir/us/sdc/ValueSet/LL629-7",
                      "display": "USSG-FHT race"
                    }
                  },
                  {
                    "linkId": "1.1.11",
                    "definition": "http://loinc.org/fhir/DataElement/54133-4",
                    "text": "Ethnicity",
                    "type": "choice",
                    "repeats": true,
                    "options": {
                      "reference": "http://hl7.org/fhir/us/sdc/ValueSet/LL628-9",
                      "display": "USSG-FHT ethnicity"
                    }
                  }
                ]
              },
              {
                "linkId": "1.2",
                "definition": "http://loinc.org/fhir/DataElement/54137-5",
                "text": "Your diseases history",
                "type": "group",
                "repeats": true,
                "item": [
                  {
                    "linkId": "1.2.1",
                    "definition": "http://loinc.org/fhir/DataElement/54140-9",
                    "text": "Disease or Condition",
                    "type": "choice",
                    "options": {
                      "reference": "http://hl7.org/fhir/us/sdc/ValueSet/LL626-3",
                      "display": "USSG-FHT diseases"
                    }
                  },
                  {
                    "linkId": "1.2.2",
                    "definition": "http://loinc.org/fhir/DataElement/54130-0",
                    "text": "Age at Diagnosis",
                    "type": "choice",
                    "options": {
                      "reference": "http://hl7.org/fhir/us/sdc/ValueSet/LL619-8",
                      "display": "USSG-FHT age"
                    }
                  }
                ]
              }
            ]
          },
          {
            "linkId": "2",
            "definition": "http://loinc.org/fhir/DataElement/54114-4",
            "text": "Family member health information",
            "type": "group",
            "repeats": true,
            "item": [
              {
                "linkId": "2.1",
                "type": "group",
                "item": [
                  {
                    "linkId": "2.1.1",
                    "type": "group",
                    "item": [
                      {
                        "linkId": "2.1.1.1",
                        "definition": "http://loinc.org/fhir/DataElement/54136-7",
                        "text": "Relationship to you",
                        "type": "choice",
                        "options": {
                          "reference": "http://hl7.org/fhir/us/sdc/ValueSet/LL621-4",
                          "display": "USSG-FHT relationship"
                        }
                      },
                      {
                        "linkId": "2.1.1.2",
                        "definition": "http://loinc.org/fhir/DataElement/54138-3",
                        "text": "Name",
                        "type": "string"
                      },
                      {
                        "linkId": "2.1.1.3",
                        "definition": "http://loinc.org/fhir/DataElement/54123-5",
                        "text": "Gender",
                        "type": "choice",
                        "options": {
                          "reference": "http://hl7.org/fhir/us/sdc/ValueSet/LL1-9",
                          "display": "Gender_M/F"
                        },
                        "item": [
                          {
                            "linkId": "2.1.1.3.1.1",
                            "text": "Please specify",
                            "type": "string",
                            "required": true
                          }
                        ]
                      },
                      {
                        "linkId": "2.1.1.4",
                        "definition": "http://loinc.org/fhir/DataElement/54139-1",
                        "text": "Living?",
                        "type": "choice",
                        "options": {
                          "reference": "http://hl7.org/fhir/us/sdc/ValueSet/LL361-7",
                          "display": "Y/N1"
                        },
                        "item": [
                          {
                            "linkId": "2.1.1.4.1",
                            "type": "group",
                            "item": [
                              {
                                "linkId": "2.1.1.4.1.1",
                                "definition": "http://loinc.org/fhir/DataElement/54112-8",
                                "text": "Cause of Death",
                                "type": "choice",
                                "options": {
                                  "reference": "http://hl7.org/fhir/us/sdc/ValueSet/LL627-1"
                                },
                                "item": [
                                  {
                                    "linkId": "2.1.1.4.1.1.1",
                                    "text": "Please specify",
                                    "type": "string"
                                  }
                                ]
                              },
                              {
                                "linkId": "2.1.1.4.1.2",
                                "definition": "http://loinc.org/fhir/DataElement/54113-6",
                                "text": "Age at Death",
                                "type": "choice",
                                "options": {
                                  "reference": "http://hl7.org/fhir/us/sdc/ValueSet/LL619-8",
                                  "display": "USSG-FHT age"
                                }
                              }
                            ]
                          },
                          {
                            "linkId": "2.1.1.4.2",
                            "type": "group",
                            "item": [
                              {
                                "linkId": "2.1.1.4.2.1",
                                "definition": "http://loinc.org/fhir/DataElement/54124-3",
                                "text": "Date of Birth",
                                "type": "date"
                              },
                              {
                                "linkId": "2.1.1.4.2.2",
                                "definition": "http://loinc.org/fhir/DataElement/54141-7",
                                "text": "Age",
                                "type": "decimal"
                              }
                            ]
                          }
                        ]
                      },
                      {
                        "linkId": "2.1.1.5",
                        "definition": "http://loinc.org/fhir/DataElement/54121-9",
                        "text": "Was this person born a twin?",
                        "type": "choice",
                        "options": {
                          "reference": "http://hl7.org/fhir/us/sdc/ValueSet/LL623-0"
                        }
                      },
                      {
                        "linkId": "2.1.1.6",
                        "definition": "http://loinc.org/fhir/DataElement/54122-7",
                        "text": "Was this person adopted?",
                        "type": "choice",
                        "options": {
                          "reference": "http://hl7.org/fhir/us/sdc/ValueSet/LL623-0"
                        }
                      },
                      {
                        "linkId": "2.1.1.7",
                        "definition": "http://loinc.org/fhir/DataElement/54119-3",
                        "text": "Race",
                        "type": "choice",
                        "repeats": true,
                        "options": {
                          "reference": "http://hl7.org/fhir/us/sdc/ValueSet/LL629-7",
                          "display": "USSG-FHT race"
                        }
                      },
                      {
                        "linkId": "2.1.1.8",
                        "definition": "http://loinc.org/fhir/DataElement/54120-1",
                        "text": "Ethnicity",
                        "type": "choice",
                        "repeats": true,
                        "options": {
                          "reference": "http://hl7.org/fhir/us/sdc/ValueSet/LL628-9",
                          "display": "USSG-FHT ethnicity"
                        }
                      }
                    ]
                  },
                  {
                    "linkId": "2.1.2",
                    "definition": "http://loinc.org/fhir/DataElement/54117-7",
                    "text": "This family member's history of disease",
                    "type": "group",
                    "repeats": true,
                    "item": [
                      {
                        "linkId": "2.1.2.1",
                        "definition": "http://loinc.org/fhir/DataElement/54116-9",
                        "text": "Disease or Condition",
                        "type": "choice",
                        "required": true,
                        "options": {
                          "reference": "http://hl7.org/fhir/us/sdc/ValueSet/LL626-3",
                          "display": "USSG-FHT diseases"
                        }
                      },
                      {
                        "linkId": "2.1.2.2",
                        "definition": "http://loinc.org/fhir/DataElement/54115-1",
                        "text": "Age at Diagnosis",
                        "type": "choice",
                        "options": {
                          "reference": "http://hl7.org/fhir/us/sdc/ValueSet/LL619-8",
                          "display": "USSG-FHT age"
                        }
                      },
                      {
                        "linkId": "2.1.2.3",
                        "text": "Mock-up item: Height",
                        "type": "decimal"
                      },
                      {
                        "linkId": "2.1.2.4",
                        "text": "Mock-up item: Weight",
                        "type": "decimal"
                      },
                      {
                        "linkId": "2.1.2.5",
                        "text": "Mock-up item: BMI",
                        "type": "decimal"
                      }
                    ]
                  }
                ]
              }
            ]
          }
        ]
      },
      "request": {
        "method": "PUT",
        "url": "http://hl7.org/fhir/us/sdc/Questionnaire/54127-6"
      }
    },
    {
      "fullUrl": "http://hl7.org/fhir/us/sdc/ValueSet/LL1-9",
      "resource": {
        "resourceType": "ValueSet",
        "id": "LL1-9",
        "meta": {
          "profile": [
            "http://hl7.org/fhir/us/sdc/StructureDefinition/sdc-valueset"
          ]
        },
        "text": {
          "status": "generated",
          "div": "<div xmlns=\"http://www.w3.org/1999/xhtml\"><p><b>Generated Narrative with Details</b></p><p><b>id</b>: LL1-9</p><p><b>meta</b>: </p><p><b>url</b>: <a>http://details.loinc.org/AnswerList/LL1-9</a></p><p><b>name</b>: Gender_M/F</p><p><b>status</b>: active</p><p><b>publisher</b>: Regenstrief Institute, Inc and the LOINC Committee</p><p><b>description</b>: Male=1, Female=2</p><p><b>immutable</b>: true</p><p><b>copyright</b>: Refer to https://loinc.org/terms-of-use</p><p><b>extensible</b>: false</p><blockquote><p><b>compose</b></p><blockquote><p><b>include</b></p><p><b>system</b>: <a>http://loinc.org</a></p><blockquote><p><b>concept</b></p><p><b>code</b>: LA2-8</p><p><b>display</b>: Male</p></blockquote><blockquote><p><b>concept</b></p><p><b>code</b>: LA3-6</p><p><b>display</b>: Female</p></blockquote><blockquote><p><b>concept</b></p><p><b>code</b>: LA46-8</p><p><b>display</b>: Other</p></blockquote></blockquote></blockquote></div>"
        },
        "url": "http://details.loinc.org/AnswerList/LL1-9",
        "name": "Gender_M/F",
        "status": "active",
        "publisher": "Regenstrief Institute, Inc and the LOINC Committee",
        "description": "Male=1, Female=2",
        "immutable": true,
        "copyright": "Refer to https://loinc.org/terms-of-use",
        "extensible": false,
        "compose": {
          "include": [
            {
              "system": "http://loinc.org",
              "concept": [
                {
                  "code": "LA2-8",
                  "display": "Male"
                },
                {
                  "code": "LA3-6",
                  "display": "Female"
                },
                {
                  "code": "LA46-8",
                  "display": "Other"
                }
              ]
            }
          ]
        }
      },
      "request": {
        "method": "PUT",
        "url": "http://hl7.org/fhir/us/sdc/ValueSet/LL1-9"
      }
    },
    {
      "fullUrl": "http://hl7.org/fhir/us/sdc/ValueSet/LL623-0",
      "resource": {
        "resourceType": "ValueSet",
        "id": "LL623-0",
        "meta": {
          "profile": [
            "http://hl7.org/fhir/us/sdc/StructureDefinition/sdc-valueset"
          ]
        },
        "text": {
          "status": "generated",
          "div": "<div xmlns=\"http://www.w3.org/1999/xhtml\"><p><b>Generated Narrative with Details</b></p><p><b>id</b>: LL623-0</p><p><b>meta</b>: </p><p><b>url</b>: <a>http://details.loinc.org/AnswerList/LL623-0</a></p><p><b>name</b>: USSG-FHT twin</p><p><b>status</b>: active</p><p><b>publisher</b>: Regenstrief Institute, Inc and the LOINC Committee</p><p><b>description</b>: Family history tool twin</p><p><b>immutable</b>: true</p><p><b>copyright</b>: Refer to https://loinc.org/terms-of-use</p><p><b>extensible</b>: false</p><blockquote><p><b>compose</b></p><blockquote><p><b>include</b></p><p><b>system</b>: <a>http://loinc.org</a></p><blockquote><p><b>concept</b></p><p><b>code</b>: LA10427-5</p><p><b>display</b>: Yes - Identical (Same)</p></blockquote><blockquote><p><b>concept</b></p><p><b>code</b>: LA10428-3</p><p><b>display</b>: Yes - Fraternal (Different)</p></blockquote><blockquote><p><b>concept</b></p><p><b>code</b>: LA32-8</p><p><b>display</b>: No</p></blockquote></blockquote></blockquote></div>"
        },
        "url": "http://details.loinc.org/AnswerList/LL623-0",
        "name": "USSG-FHT twin",
        "status": "active",
        "publisher": "Regenstrief Institute, Inc and the LOINC Committee",
        "description": "Family history tool twin",
        "immutable": true,
        "copyright": "Refer to https://loinc.org/terms-of-use",
        "extensible": false,
        "compose": {
          "include": [
            {
              "system": "http://loinc.org",
              "concept": [
                {
                  "code": "LA10427-5",
                  "display": "Yes - Identical (Same)"
                },
                {
                  "code": "LA10428-3",
                  "display": "Yes - Fraternal (Different)"
                },
                {
                  "code": "LA32-8",
                  "display": "No"
                }
              ]
            }
          ]
        }
      },
      "request": {
        "method": "PUT",
        "url": "http://hl7.org/fhir/us/sdc/ValueSet/LL623-0"
      }
    },
    {
      "fullUrl": "http://hl7.org/fhir/us/sdc/ValueSet/LL361-7",
      "resource": {
        "resourceType": "ValueSet",
        "id": "LL361-7",
        "meta": {
          "profile": [
            "http://hl7.org/fhir/us/sdc/StructureDefinition/sdc-valueset"
          ]
        },
        "text": {
          "status": "generated",
          "div": "<div xmlns=\"http://www.w3.org/1999/xhtml\"><p><b>Generated Narrative with Details</b></p><p><b>id</b>: LL361-7</p><p><b>meta</b>: </p><p><b>url</b>: <a>http://details.loinc.org/AnswerList/LL361-7</a></p><p><b>name</b>: Y/N1</p><p><b>status</b>: active</p><p><b>publisher</b>: Regenstrief Institute, Inc and the LOINC Committee</p><p><b>description</b>: Yes/No</p><p><b>immutable</b>: true</p><p><b>copyright</b>: Refer to https://loinc.org/terms-of-use</p><p><b>extensible</b>: false</p><blockquote><p><b>compose</b></p><blockquote><p><b>include</b></p><p><b>system</b>: <a>http://loinc.org</a></p><blockquote><p><b>concept</b></p><p><b>code</b>: LA33-6</p><p><b>display</b>: Yes</p></blockquote><blockquote><p><b>concept</b></p><p><b>code</b>: LA32-8</p><p><b>display</b>: No</p></blockquote></blockquote></blockquote></div>"
        },
        "url": "http://details.loinc.org/AnswerList/LL361-7",
        "name": "Y/N1",
        "status": "active",
        "publisher": "Regenstrief Institute, Inc and the LOINC Committee",
        "description": "Yes/No",
        "immutable": true,
        "copyright": "Refer to https://loinc.org/terms-of-use",
        "extensible": false,
        "compose": {
          "include": [
            {
              "system": "http://loinc.org",
              "concept": [
                {
                  "code": "LA33-6",
                  "display": "Yes"
                },
                {
                  "code": "LA32-8",
                  "display": "No"
                }
              ]
            }
          ]
        }
      },
      "request": {
        "method": "PUT",
        "url": "http://hl7.org/fhir/us/sdc/ValueSet/LL361-7"
      }
    },
    {
      "fullUrl": "http://hl7.org/fhir/us/sdc/ValueSet/LL629-7",
      "resource": {
        "resourceType": "ValueSet",
        "id": "LL629-7",
        "meta": {
          "profile": [
            "http://hl7.org/fhir/us/sdc/StructureDefinition/sdc-valueset"
          ]
        },
        "text": {
          "status": "generated",
          "div": "<div xmlns=\"http://www.w3.org/1999/xhtml\"><p><b>Generated Narrative with Details</b></p><p><b>id</b>: LL629-7</p><p><b>meta</b>: </p><p><b>url</b>: <a>http://details.loinc.org/AnswerList/LL629-7</a></p><p><b>name</b>: USSG-FHT race</p><p><b>status</b>: active</p><p><b>publisher</b>: Regenstrief Institute, Inc and the LOINC Committee</p><p><b>description</b>: Family history tool race</p><p><b>immutable</b>: true</p><p><b>copyright</b>: Refer to https://loinc.org/terms-of-use</p><p><b>extensible</b>: false</p><blockquote><p><b>compose</b></p><blockquote><p><b>include</b></p><p><b>system</b>: <a>http://loinc.org</a></p><blockquote><p><b>concept</b></p><p><b>code</b>: LA10608-0</p><p><b>display</b>: American  Indian or Alaska Native</p></blockquote><blockquote><p><b>concept</b></p><p><b>code</b>: LA6156-9</p><p><b>display</b>: Asian</p></blockquote><blockquote><p><b>concept</b></p><p><b>code</b>: LA10614-8</p><p><b>display</b>: -- Asian Indian</p></blockquote><blockquote><p><b>concept</b></p><p><b>code</b>: LA10615-5</p><p><b>display</b>: -- Chinese</p></blockquote><blockquote><p><b>concept</b></p><p><b>code</b>: LA10616-3</p><p><b>display</b>: -- Filipino</p></blockquote><blockquote><p><b>concept</b></p><p><b>code</b>: LA10617-1</p><p><b>display</b>: -- Japanese</p></blockquote><blockquote><p><b>concept</b></p><p><b>code</b>: LA10618-9</p><p><b>display</b>: -- Korean</p></blockquote><blockquote><p><b>concept</b></p><p><b>code</b>: LA10620-5</p><p><b>display</b>: -- Vietnamese</p></blockquote><blockquote><p><b>concept</b></p><p><b>code</b>: LA10619-7</p><p><b>display</b>: -- Other Asian</p></blockquote><blockquote><p><b>concept</b></p><p><b>code</b>: LA10610-6</p><p><b>display</b>: Black or African American</p></blockquote><blockquote><p><b>concept</b></p><p><b>code</b>: LA10611-4</p><p><b>display</b>: Native Hawaiian or Other Pacific Islander</p></blockquote><blockquote><p><b>concept</b></p><p><b>code</b>: LA10623-9</p><p><b>display</b>: -- Native Hawaiian</p></blockquote><blockquote><p><b>concept</b></p><p><b>code</b>: LA10622-1</p><p><b>display</b>: -- Guamanian</p></blockquote><blockquote><p><b>concept</b></p><p><b>code</b>: LA10621-3</p><p><b>display</b>: -- Chamorro</p></blockquote><blockquote><p><b>concept</b></p><p><b>code</b>: LA10625-4</p><p><b>display</b>: -- Samoan</p></blockquote><blockquote><p><b>concept</b></p><p><b>code</b>: LA10624-7</p><p><b>display</b>: -- Other Pacific Islander</p></blockquote><blockquote><p><b>concept</b></p><p><b>code</b>: LA4457-3</p><p><b>display</b>: White</p></blockquote><blockquote><p><b>concept</b></p><p><b>code</b>: LA10613-0</p><p><b>display</b>: Other/Unknown/Refuse To Answer</p></blockquote></blockquote></blockquote></div>"
        },
        "url": "http://details.loinc.org/AnswerList/LL629-7",
        "name": "USSG-FHT race",
        "status": "active",
        "publisher": "Regenstrief Institute, Inc and the LOINC Committee",
        "description": "Family history tool race",
        "immutable": true,
        "copyright": "Refer to https://loinc.org/terms-of-use",
        "extensible": false,
        "compose": {
          "include": [
            {
              "system": "http://loinc.org",
              "concept": [
                {
                  "code": "LA10608-0",
                  "display": "American  Indian or Alaska Native"
                },
                {
                  "code": "LA6156-9",
                  "display": "Asian"
                },
                {
                  "code": "LA10614-8",
                  "display": "-- Asian Indian"
                },
                {
                  "code": "LA10615-5",
                  "display": "-- Chinese"
                },
                {
                  "code": "LA10616-3",
                  "display": "-- Filipino"
                },
                {
                  "code": "LA10617-1",
                  "display": "-- Japanese"
                },
                {
                  "code": "LA10618-9",
                  "display": "-- Korean"
                },
                {
                  "code": "LA10620-5",
                  "display": "-- Vietnamese"
                },
                {
                  "code": "LA10619-7",
                  "display": "-- Other Asian"
                },
                {
                  "code": "LA10610-6",
                  "display": "Black or African American"
                },
                {
                  "code": "LA10611-4",
                  "display": "Native Hawaiian or Other Pacific Islander"
                },
                {
                  "code": "LA10623-9",
                  "display": "-- Native Hawaiian"
                },
                {
                  "code": "LA10622-1",
                  "display": "-- Guamanian"
                },
                {
                  "code": "LA10621-3",
                  "display": "-- Chamorro"
                },
                {
                  "code": "LA10625-4",
                  "display": "-- Samoan"
                },
                {
                  "code": "LA10624-7",
                  "display": "-- Other Pacific Islander"
                },
                {
                  "code": "LA4457-3",
                  "display": "White"
                },
                {
                  "code": "LA10613-0",
                  "display": "Other/Unknown/Refuse To Answer"
                }
              ]
            }
          ]
        }
      },
      "request": {
        "method": "PUT",
        "url": "http://hl7.org/fhir/us/sdc/ValueSet/LL629-7"
      }
    },
    {
      "fullUrl": "http://hl7.org/fhir/us/sdc/ValueSet/LL628-9",
      "resource": {
        "resourceType": "ValueSet",
        "id": "LL628-9",
        "meta": {
          "profile": [
            "http://hl7.org/fhir/us/sdc/StructureDefinition/sdc-valueset"
          ]
        },
        "text": {
          "status": "generated",
          "div": "<div xmlns=\"http://www.w3.org/1999/xhtml\"><p><b>Generated Narrative with Details</b></p><p><b>id</b>: LL628-9</p><p><b>meta</b>: </p><p><b>url</b>: <a>http://details.loinc.org/AnswerList/LL628-9</a></p><p><b>name</b>: USSG-FHT ethnicity</p><p><b>status</b>: active</p><p><b>publisher</b>: Regenstrief Institute, Inc and the LOINC Committee</p><p><b>description</b>: Family history tool ethnicity</p><p><b>immutable</b>: true</p><p><b>copyright</b>: Refer to https://loinc.org/terms-of-use</p><p><b>extensible</b>: false</p><blockquote><p><b>compose</b></p><blockquote><p><b>include</b></p><p><b>system</b>: <a>http://loinc.org</a></p><blockquote><p><b>concept</b></p><p><b>code</b>: LA6214-6</p><p><b>display</b>: Hispanic or Latino</p></blockquote><blockquote><p><b>concept</b></p><p><b>code</b>: LA10599-1</p><p><b>display</b>: -- Central American</p></blockquote><blockquote><p><b>concept</b></p><p><b>code</b>: LA10600-7</p><p><b>display</b>: -- Cuban</p></blockquote><blockquote><p><b>concept</b></p><p><b>code</b>: LA10601-5</p><p><b>display</b>: -- Dominican(Republic)</p></blockquote><blockquote><p><b>concept</b></p><p><b>code</b>: LA10602-3</p><p><b>display</b>: -- Mexican</p></blockquote><blockquote><p><b>concept</b></p><p><b>code</b>: LA10605-6</p><p><b>display</b>: -- Puerto Rican</p></blockquote><blockquote><p><b>concept</b></p><p><b>code</b>: LA10606-4</p><p><b>display</b>: -- South American</p></blockquote><blockquote><p><b>concept</b></p><p><b>code</b>: LA10604-9</p><p><b>display</b>: -- Other Latin American</p></blockquote><blockquote><p><b>concept</b></p><p><b>code</b>: LA10603-1</p><p><b>display</b>: -- Other Hispanic/Latino/Spanish</p></blockquote><blockquote><p><b>concept</b></p><p><b>code</b>: LA10597-5</p><p><b>display</b>: Non-Hispanic or Latino</p></blockquote><blockquote><p><b>concept</b></p><p><b>code</b>: LA10598-3</p><p><b>display</b>: Ashkenazi Jewish</p></blockquote><blockquote><p><b>concept</b></p><p><b>code</b>: LA10607-2</p><p><b>display</b>: Unknown/No answer</p></blockquote></blockquote></blockquote></div>"
        },
        "url": "http://details.loinc.org/AnswerList/LL628-9",
        "name": "USSG-FHT ethnicity",
        "status": "active",
        "publisher": "Regenstrief Institute, Inc and the LOINC Committee",
        "description": "Family history tool ethnicity",
        "immutable": true,
        "copyright": "Refer to https://loinc.org/terms-of-use",
        "extensible": false,
        "compose": {
          "include": [
            {
              "system": "http://loinc.org",
              "concept": [
                {
                  "code": "LA6214-6",
                  "display": "Hispanic or Latino"
                },
                {
                  "code": "LA10599-1",
                  "display": "-- Central American"
                },
                {
                  "code": "LA10600-7",
                  "display": "-- Cuban"
                },
                {
                  "code": "LA10601-5",
                  "display": "-- Dominican(Republic)"
                },
                {
                  "code": "LA10602-3",
                  "display": "-- Mexican"
                },
                {
                  "code": "LA10605-6",
                  "display": "-- Puerto Rican"
                },
                {
                  "code": "LA10606-4",
                  "display": "-- South American"
                },
                {
                  "code": "LA10604-9",
                  "display": "-- Other Latin American"
                },
                {
                  "code": "LA10603-1",
                  "display": "-- Other Hispanic/Latino/Spanish"
                },
                {
                  "code": "LA10597-5",
                  "display": "Non-Hispanic or Latino"
                },
                {
                  "code": "LA10598-3",
                  "display": "Ashkenazi Jewish"
                },
                {
                  "code": "LA10607-2",
                  "display": "Unknown/No answer"
                }
              ]
            }
          ]
        }
      },
      "request": {
        "method": "PUT",
        "url": "http://hl7.org/fhir/us/sdc/ValueSet/LL628-9"
      }
    },
    {
      "fullUrl": "http://hl7.org/fhir/us/sdc/ValueSet/LL626-3",
      "resource": {
        "resourceType": "ValueSet",
        "id": "LL626-3",
        "meta": {
          "profile": [
            "http://hl7.org/fhir/us/sdc/StructureDefinition/sdc-valueset"
          ]
        },
        "text": {
          "status": "generated",
          "div": "<div xmlns=\"http://www.w3.org/1999/xhtml\"><p><b>Generated Narrative with Details</b></p><p><b>id</b>: LL626-3</p><p><b>meta</b>: </p><p><b>url</b>: <a>http://details.loinc.org/AnswerList/LL626-3</a></p><p><b>name</b>: USSG-FHT diseases</p><p><b>status</b>: active</p><p><b>publisher</b>: Regenstrief Institute, Inc and the LOINC Committee</p><p><b>description</b>: Family history tool diseases</p><p><b>immutable</b>: true</p><p><b>copyright</b>: Refer to https://loinc.org/terms-of-use</p><p><b>extensible</b>: false</p><blockquote><p><b>compose</b></p><blockquote><p><b>include</b></p><p><b>system</b>: <a>http://loinc.org</a></p><blockquote><p><b>concept</b></p><p><b>code</b>: LA10533-0</p><p><b>display</b>: Blood Clots</p></blockquote><blockquote><p><b>concept</b></p><p><b>code</b>: LA10572-8</p><p><b>display</b>: -- Blood Clot in Leg</p></blockquote><blockquote><p><b>concept</b></p><p><b>code</b>: LA10573-6</p><p><b>display</b>: -- Blood Clot in Lungs</p></blockquote><blockquote><p><b>concept</b></p><p><b>code</b>: LA10524-9</p><p><b>display</b>: Cancer</p></blockquote><blockquote><p><b>concept</b></p><p><b>code</b>: LA10549-6</p><p><b>display</b>: -- Bone</p></blockquote><blockquote><p><b>concept</b></p><p><b>code</b>: LA10536-3</p><p><b>display</b>: -- Breast Cancer</p></blockquote><blockquote><p><b>concept</b></p><p><b>code</b>: LA10537-1</p><p><b>display</b>: -- Colon Cancer</p></blockquote><blockquote><p><b>concept</b></p><p><b>code</b>: LA10548-8</p><p><b>display</b>: -- Esophageal Cancer</p></blockquote><blockquote><p><b>concept</b></p><p><b>code</b>: LA10547-0</p><p><b>display</b>: -- Gastric Cancer</p></blockquote><blockquote><p><b>concept</b></p><p><b>code</b>: LA10541-3</p><p><b>display</b>: -- Kidney Cancer</p></blockquote><blockquote><p><b>concept</b></p><p><b>code</b>: LA10545-4</p><p><b>display</b>: -- Leukemia</p></blockquote><blockquote><p><b>concept</b></p><p><b>code</b>: LA10542-1</p><p><b>display</b>: -- Lung Cancer</p></blockquote><blockquote><p><b>concept</b></p><p><b>code</b>: LA10546-2</p><p><b>display</b>: -- Muscle Cancer</p></blockquote><blockquote><p><b>concept</b></p><p><b>code</b>: LA10539-7</p><p><b>display</b>: -- Ovarian Cancer</p></blockquote><blockquote><p><b>concept</b></p><p><b>code</b>: LA10538-9</p><p><b>display</b>: -- Prostate Cancer</p></blockquote><blockquote><p><b>concept</b></p><p><b>code</b>: LA10543-9</p><p><b>display</b>: -- Skin Cancer</p></blockquote><blockquote><p><b>concept</b></p><p><b>code</b>: LA10540-5</p><p><b>display</b>: -- Thyroid Cancer</p></blockquote><blockquote><p><b>concept</b></p><p><b>code</b>: LA10544-7</p><p><b>display</b>: -- Uterine Cancer</p></blockquote><blockquote><p><b>concept</b></p><p><b>code</b>: LA10550-4</p><p><b>display</b>: -- Other Cancer</p></blockquote><blockquote><p><b>concept</b></p><p><b>code</b>: LA10529-8</p><p><b>display</b>: Diabetes</p></blockquote><blockquote><p><b>concept</b></p><p><b>code</b>: LA10551-2</p><p><b>display</b>: -- Diabetes Type 1</p></blockquote><blockquote><p><b>concept</b></p><p><b>code</b>: LA10552-0</p><p><b>display</b>: -- Diabetes Type 2</p></blockquote><blockquote><p><b>concept</b></p><p><b>code</b>: LA10553-8</p><p><b>display</b>: -- Gestational Diabetes</p></blockquote><blockquote><p><b>concept</b></p><p><b>code</b>: LA10532-2</p><p><b>display</b>: Gastrointestinal Disease</p></blockquote><blockquote><p><b>concept</b></p><p><b>code</b>: LA10554-6</p><p><b>display</b>: -- Crohn's Disease</p></blockquote><blockquote><p><b>concept</b></p><p><b>code</b>: LA10555-3</p><p><b>display</b>: -- Irritable Bowel Syndrome</p></blockquote><blockquote><p><b>concept</b></p><p><b>code</b>: LA10556-1</p><p><b>display</b>: -- Ulceritive Colitis</p></blockquote><blockquote><p><b>concept</b></p><p><b>code</b>: LA10557-9</p><p><b>display</b>: -- Colon Polyps</p></blockquote><blockquote><p><b>concept</b></p><p><b>code</b>: LA10523-1</p><p><b>display</b>: Heart Disease</p></blockquote><blockquote><p><b>concept</b></p><p><b>code</b>: LA10558-7</p><p><b>display</b>: -- Heart Attack</p></blockquote><blockquote><p><b>concept</b></p><p><b>code</b>: LA10526-4</p><p><b>display</b>: High Cholesterol/Hyperlipidemia</p></blockquote><blockquote><p><b>concept</b></p><p><b>code</b>: LA7444-8</p><p><b>display</b>: Hypertension</p></blockquote><blockquote><p><b>concept</b></p><p><b>code</b>: LA10528-0</p><p><b>display</b>: Kidney Disease</p></blockquote><blockquote><p><b>concept</b></p><p><b>code</b>: LA10565-2</p><p><b>display</b>: -- Cystic Kidney Disease</p></blockquote><blockquote><p><b>concept</b></p><p><b>code</b>: LA10566-0</p><p><b>display</b>: -- Kidney Disease Present From Birth</p></blockquote><blockquote><p><b>concept</b></p><p><b>code</b>: LA10567-8</p><p><b>display</b>: -- Nephrosis</p></blockquote><blockquote><p><b>concept</b></p><p><b>code</b>: LA10568-6</p><p><b>display</b>: -- Nephritis</p></blockquote><blockquote><p><b>concept</b></p><p><b>code</b>: LA10569-4</p><p><b>display</b>: -- Nephrotic Syndrome</p></blockquote><blockquote><p><b>concept</b></p><p><b>code</b>: LA10570-2</p><p><b>display</b>: -- Diabetic Kidney Disease</p></blockquote><blockquote><p><b>concept</b></p><p><b>code</b>: LA10571-0</p><p><b>display</b>: -- Other/Unknown</p></blockquote><blockquote><p><b>concept</b></p><p><b>code</b>: LA10531-4</p><p><b>display</b>: Lung Disease</p></blockquote><blockquote><p><b>concept</b></p><p><b>code</b>: LA10559-5</p><p><b>display</b>: -- COPD</p></blockquote><blockquote><p><b>concept</b></p><p><b>code</b>: LA10560-3</p><p><b>display</b>: -- Chronic Bronchitis</p></blockquote><blockquote><p><b>concept</b></p><p><b>code</b>: LA10561-1</p><p><b>display</b>: -- Emphysema</p></blockquote><blockquote><p><b>concept</b></p><p><b>code</b>: LA10562-9</p><p><b>display</b>: -- Chronic Lower Respiratory Disease</p></blockquote><blockquote><p><b>concept</b></p><p><b>code</b>: LA10563-7</p><p><b>display</b>: -- Influenza/Pneumonia</p></blockquote><blockquote><p><b>concept</b></p><p><b>code</b>: LA10564-5</p><p><b>display</b>: -- Asthma</p></blockquote><blockquote><p><b>concept</b></p><p><b>code</b>: LA10590-0</p><p><b>display</b>: Neurological Disorders</p></blockquote><blockquote><p><b>concept</b></p><p><b>code</b>: LA10527-2</p><p><b>display</b>: Osteoporosis</p></blockquote><blockquote><p><b>concept</b></p><p><b>code</b>: LA10535-5</p><p><b>display</b>: Psychological Disorders</p></blockquote><blockquote><p><b>concept</b></p><p><b>code</b>: LA10574-4</p><p><b>display</b>: -- Anxiety</p></blockquote><blockquote><p><b>concept</b></p><p><b>code</b>: LA10575-1</p><p><b>display</b>: -- Bipolar/Manic Depressive Disorder</p></blockquote><blockquote><p><b>concept</b></p><p><b>code</b>: LA10576-9</p><p><b>display</b>: -- Depression</p></blockquote><blockquote><p><b>concept</b></p><p><b>code</b>: LA10577-7</p><p><b>display</b>: -- Attention Deficit Hyper Activity</p></blockquote><blockquote><p><b>concept</b></p><p><b>code</b>: LA10578-5</p><p><b>display</b>: -- Autism</p></blockquote><blockquote><p><b>concept</b></p><p><b>code</b>: LA10579-3</p><p><b>display</b>: -- Personality Disorder</p></blockquote><blockquote><p><b>concept</b></p><p><b>code</b>: LA10580-1</p><p><b>display</b>: -- Eating Disorder</p></blockquote><blockquote><p><b>concept</b></p><p><b>code</b>: LA10581-9</p><p><b>display</b>: -- Obsessive Compulsive Disorder</p></blockquote><blockquote><p><b>concept</b></p><p><b>code</b>: LA10582-7</p><p><b>display</b>: -- Panic Disorder</p></blockquote><blockquote><p><b>concept</b></p><p><b>code</b>: LA10583-5</p><p><b>display</b>: -- Post Traumatic Stress Disorder</p></blockquote><blockquote><p><b>concept</b></p><p><b>code</b>: LA10584-3</p><p><b>display</b>: -- Schizophrenia</p></blockquote><blockquote><p><b>concept</b></p><p><b>code</b>: LA10585-0</p><p><b>display</b>: -- Social Phobia</p></blockquote><blockquote><p><b>concept</b></p><p><b>code</b>: LA10586-8</p><p><b>display</b>: -- Dementia</p></blockquote><blockquote><p><b>concept</b></p><p><b>code</b>: LA10591-8</p><p><b>display</b>: Septicemia</p></blockquote><blockquote><p><b>concept</b></p><p><b>code</b>: LA10522-3</p><p><b>display</b>: Stroke/Brain Attack</p></blockquote><blockquote><p><b>concept</b></p><p><b>code</b>: LA10530-6</p><p><b>display</b>: Sudden Infant Death Syndrome</p></blockquote></blockquote></blockquote></div>"
        },
        "url": "http://details.loinc.org/AnswerList/LL626-3",
        "name": "USSG-FHT diseases",
        "status": "active",
        "publisher": "Regenstrief Institute, Inc and the LOINC Committee",
        "description": "Family history tool diseases",
        "immutable": true,
        "copyright": "Refer to https://loinc.org/terms-of-use",
        "extensible": false,
        "compose": {
          "include": [
            {
              "system": "http://loinc.org",
              "concept": [
                {
                  "code": "LA10533-0",
                  "display": "Blood Clots"
                },
                {
                  "code": "LA10572-8",
                  "display": "-- Blood Clot in Leg"
                },
                {
                  "code": "LA10573-6",
                  "display": "-- Blood Clot in Lungs"
                },
                {
                  "code": "LA10524-9",
                  "display": "Cancer"
                },
                {
                  "code": "LA10549-6",
                  "display": "-- Bone"
                },
                {
                  "code": "LA10536-3",
                  "display": "-- Breast Cancer"
                },
                {
                  "code": "LA10537-1",
                  "display": "-- Colon Cancer"
                },
                {
                  "code": "LA10548-8",
                  "display": "-- Esophageal Cancer"
                },
                {
                  "code": "LA10547-0",
                  "display": "-- Gastric Cancer"
                },
                {
                  "code": "LA10541-3",
                  "display": "-- Kidney Cancer"
                },
                {
                  "code": "LA10545-4",
                  "display": "-- Leukemia"
                },
                {
                  "code": "LA10542-1",
                  "display": "-- Lung Cancer"
                },
                {
                  "code": "LA10546-2",
                  "display": "-- Muscle Cancer"
                },
                {
                  "code": "LA10539-7",
                  "display": "-- Ovarian Cancer"
                },
                {
                  "code": "LA10538-9",
                  "display": "-- Prostate Cancer"
                },
                {
                  "code": "LA10543-9",
                  "display": "-- Skin Cancer"
                },
                {
                  "code": "LA10540-5",
                  "display": "-- Thyroid Cancer"
                },
                {
                  "code": "LA10544-7",
                  "display": "-- Uterine Cancer"
                },
                {
                  "code": "LA10550-4",
                  "display": "-- Other Cancer"
                },
                {
                  "code": "LA10529-8",
                  "display": "Diabetes"
                },
                {
                  "code": "LA10551-2",
                  "display": "-- Diabetes Type 1"
                },
                {
                  "code": "LA10552-0",
                  "display": "-- Diabetes Type 2"
                },
                {
                  "code": "LA10553-8",
                  "display": "-- Gestational Diabetes"
                },
                {
                  "code": "LA10532-2",
                  "display": "Gastrointestinal Disease"
                },
                {
                  "code": "LA10554-6",
                  "display": "-- Crohn's Disease"
                },
                {
                  "code": "LA10555-3",
                  "display": "-- Irritable Bowel Syndrome"
                },
                {
                  "code": "LA10556-1",
                  "display": "-- Ulceritive Colitis"
                },
                {
                  "code": "LA10557-9",
                  "display": "-- Colon Polyps"
                },
                {
                  "code": "LA10523-1",
                  "display": "Heart Disease"
                },
                {
                  "code": "LA10558-7",
                  "display": "-- Heart Attack"
                },
                {
                  "code": "LA10526-4",
                  "display": "High Cholesterol/Hyperlipidemia"
                },
                {
                  "code": "LA7444-8",
                  "display": "Hypertension"
                },
                {
                  "code": "LA10528-0",
                  "display": "Kidney Disease"
                },
                {
                  "code": "LA10565-2",
                  "display": "-- Cystic Kidney Disease"
                },
                {
                  "code": "LA10566-0",
                  "display": "-- Kidney Disease Present From Birth"
                },
                {
                  "code": "LA10567-8",
                  "display": "-- Nephrosis"
                },
                {
                  "code": "LA10568-6",
                  "display": "-- Nephritis"
                },
                {
                  "code": "LA10569-4",
                  "display": "-- Nephrotic Syndrome"
                },
                {
                  "code": "LA10570-2",
                  "display": "-- Diabetic Kidney Disease"
                },
                {
                  "code": "LA10571-0",
                  "display": "-- Other/Unknown"
                },
                {
                  "code": "LA10531-4",
                  "display": "Lung Disease"
                },
                {
                  "code": "LA10559-5",
                  "display": "-- COPD"
                },
                {
                  "code": "LA10560-3",
                  "display": "-- Chronic Bronchitis"
                },
                {
                  "code": "LA10561-1",
                  "display": "-- Emphysema"
                },
                {
                  "code": "LA10562-9",
                  "display": "-- Chronic Lower Respiratory Disease"
                },
                {
                  "code": "LA10563-7",
                  "display": "-- Influenza/Pneumonia"
                },
                {
                  "code": "LA10564-5",
                  "display": "-- Asthma"
                },
                {
                  "code": "LA10590-0",
                  "display": "Neurological Disorders"
                },
                {
                  "code": "LA10527-2",
                  "display": "Osteoporosis"
                },
                {
                  "code": "LA10535-5",
                  "display": "Psychological Disorders"
                },
                {
                  "code": "LA10574-4",
                  "display": "-- Anxiety"
                },
                {
                  "code": "LA10575-1",
                  "display": "-- Bipolar/Manic Depressive Disorder"
                },
                {
                  "code": "LA10576-9",
                  "display": "-- Depression"
                },
                {
                  "code": "LA10577-7",
                  "display": "-- Attention Deficit Hyper Activity"
                },
                {
                  "code": "LA10578-5",
                  "display": "-- Autism"
                },
                {
                  "code": "LA10579-3",
                  "display": "-- Personality Disorder"
                },
                {
                  "code": "LA10580-1",
                  "display": "-- Eating Disorder"
                },
                {
                  "code": "LA10581-9",
                  "display": "-- Obsessive Compulsive Disorder"
                },
                {
                  "code": "LA10582-7",
                  "display": "-- Panic Disorder"
                },
                {
                  "code": "LA10583-5",
                  "display": "-- Post Traumatic Stress Disorder"
                },
                {
                  "code": "LA10584-3",
                  "display": "-- Schizophrenia"
                },
                {
                  "code": "LA10585-0",
                  "display": "-- Social Phobia"
                },
                {
                  "code": "LA10586-8",
                  "display": "-- Dementia"
                },
                {
                  "code": "LA10591-8",
                  "display": "Septicemia"
                },
                {
                  "code": "LA10522-3",
                  "display": "Stroke/Brain Attack"
                },
                {
                  "code": "LA10530-6",
                  "display": "Sudden Infant Death Syndrome"
                }
              ]
            }
          ]
        }
      },
      "request": {
        "method": "PUT",
        "url": "http://hl7.org/fhir/us/sdc/ValueSet/LL626-3"
      }
    },
    {
      "fullUrl": "http://hl7.org/fhir/us/sdc/ValueSet/LL619-8",
      "resource": {
        "resourceType": "ValueSet",
        "id": "LL619-8",
        "meta": {
          "profile": [
            "http://hl7.org/fhir/us/sdc/StructureDefinition/sdc-valueset"
          ]
        },
        "text": {
          "status": "generated",
          "div": "<div xmlns=\"http://www.w3.org/1999/xhtml\"><p><b>Generated Narrative with Details</b></p><p><b>id</b>: LL619-8</p><p><b>meta</b>: </p><p><b>url</b>: <a>http://details.loinc.org/AnswerList/LL619-8</a></p><p><b>name</b>: USSG-FHT age</p><p><b>status</b>: active</p><p><b>publisher</b>: Regenstrief Institute, Inc and the LOINC Committee</p><p><b>description</b>: Family history tool age range</p><p><b>immutable</b>: true</p><p><b>copyright</b>: Refer to https://loinc.org/terms-of-use</p><p><b>extensible</b>: false</p><blockquote><p><b>compose</b></p><blockquote><p><b>include</b></p><p><b>system</b>: <a>http://loinc.org</a></p><blockquote><p><b>concept</b></p><p><b>code</b>: LA10402-8</p><p><b>display</b>: Pre-Birth</p></blockquote><blockquote><p><b>concept</b></p><p><b>code</b>: LA10403-6</p><p><b>display</b>: Newborn</p></blockquote><blockquote><p><b>concept</b></p><p><b>code</b>: LA10394-7</p><p><b>display</b>: Infancy</p></blockquote><blockquote><p><b>concept</b></p><p><b>code</b>: LA10395-4</p><p><b>display</b>: Childhood</p></blockquote><blockquote><p><b>concept</b></p><p><b>code</b>: LA10404-4</p><p><b>display</b>: Adolescence</p></blockquote><blockquote><p><b>concept</b></p><p><b>code</b>: LA10396-2</p><p><b>display</b>: 20-29</p></blockquote><blockquote><p><b>concept</b></p><p><b>code</b>: LA10397-0</p><p><b>display</b>: 30-39</p></blockquote><blockquote><p><b>concept</b></p><p><b>code</b>: LA10398-8</p><p><b>display</b>: 40-49</p></blockquote><blockquote><p><b>concept</b></p><p><b>code</b>: LA10399-6</p><p><b>display</b>: 50-59</p></blockquote><blockquote><p><b>concept</b></p><p><b>code</b>: LA10400-2</p><p><b>display</b>: OVER 60</p></blockquote><blockquote><p><b>concept</b></p><p><b>code</b>: LA4489-6</p><p><b>display</b>: Unknown</p></blockquote></blockquote></blockquote></div>"
        },
        "url": "http://details.loinc.org/AnswerList/LL619-8",
        "name": "USSG-FHT age",
        "status": "active",
        "publisher": "Regenstrief Institute, Inc and the LOINC Committee",
        "description": "Family history tool age range",
        "immutable": true,
        "copyright": "Refer to https://loinc.org/terms-of-use",
        "extensible": false,
        "compose": {
          "include": [
            {
              "system": "http://loinc.org",
              "concept": [
                {
                  "code": "LA10402-8",
                  "display": "Pre-Birth"
                },
                {
                  "code": "LA10403-6",
                  "display": "Newborn"
                },
                {
                  "code": "LA10394-7",
                  "display": "Infancy"
                },
                {
                  "code": "LA10395-4",
                  "display": "Childhood"
                },
                {
                  "code": "LA10404-4",
                  "display": "Adolescence"
                },
                {
                  "code": "LA10396-2",
                  "display": "20-29"
                },
                {
                  "code": "LA10397-0",
                  "display": "30-39"
                },
                {
                  "code": "LA10398-8",
                  "display": "40-49"
                },
                {
                  "code": "LA10399-6",
                  "display": "50-59"
                },
                {
                  "code": "LA10400-2",
                  "display": "OVER 60"
                },
                {
                  "code": "LA4489-6",
                  "display": "Unknown"
                }
              ]
            }
          ]
        }
      },
      "request": {
        "method": "PUT",
        "url": "http://hl7.org/fhir/us/sdc/ValueSet/LL619-8"
      }
    },
    {
      "fullUrl": "http://hl7.org/fhir/us/sdc/ValueSet/LL621-4",
      "resource": {
        "resourceType": "ValueSet",
        "id": "LL621-4",
        "meta": {
          "profile": [
            "http://hl7.org/fhir/us/sdc/StructureDefinition/sdc-valueset"
          ]
        },
        "text": {
          "status": "generated",
          "div": "<div xmlns=\"http://www.w3.org/1999/xhtml\"><p><b>Generated Narrative with Details</b></p><p><b>id</b>: LL621-4</p><p><b>meta</b>: </p><p><b>url</b>: <a>http://details.loinc.org/AnswerList/LL621-4</a></p><p><b>name</b>: USSG-FHT relationship</p><p><b>status</b>: active</p><p><b>publisher</b>: Regenstrief Institute, Inc and the LOINC Committee</p><p><b>description</b>: Family history tool relationship to patient</p><p><b>immutable</b>: true</p><p><b>copyright</b>: Refer to https://loinc.org/terms-of-use</p><p><b>extensible</b>: false</p><blockquote><p><b>compose</b></p><blockquote><p><b>include</b></p><p><b>system</b>: <a>http://loinc.org</a></p><blockquote><p><b>concept</b></p><p><b>code</b>: LA10405-1</p><p><b>display</b>: Daughter</p></blockquote><blockquote><p><b>concept</b></p><p><b>code</b>: LA10406-9</p><p><b>display</b>: Granddaughter</p></blockquote><blockquote><p><b>concept</b></p><p><b>code</b>: LA10407-7</p><p><b>display</b>: Grandson</p></blockquote><blockquote><p><b>concept</b></p><p><b>code</b>: LA10408-5</p><p><b>display</b>: Half-brother</p></blockquote><blockquote><p><b>concept</b></p><p><b>code</b>: LA10409-3</p><p><b>display</b>: Half-sister</p></blockquote><blockquote><p><b>concept</b></p><p><b>code</b>: LA10410-1</p><p><b>display</b>: Maternal Aunt</p></blockquote><blockquote><p><b>concept</b></p><p><b>code</b>: LA10411-9</p><p><b>display</b>: Maternal Cousin</p></blockquote><blockquote><p><b>concept</b></p><p><b>code</b>: LA10412-7</p><p><b>display</b>: Maternal Grandfather</p></blockquote><blockquote><p><b>concept</b></p><p><b>code</b>: LA10413-5</p><p><b>display</b>: Maternal Grandmother</p></blockquote><blockquote><p><b>concept</b></p><p><b>code</b>: LA10414-3</p><p><b>display</b>: Maternal Uncle</p></blockquote><blockquote><p><b>concept</b></p><p><b>code</b>: LA10415-0</p><p><b>display</b>: Brother</p></blockquote><blockquote><p><b>concept</b></p><p><b>code</b>: LA10416-8</p><p><b>display</b>: Father</p></blockquote><blockquote><p><b>concept</b></p><p><b>code</b>: LA10417-6</p><p><b>display</b>: Mother</p></blockquote><blockquote><p><b>concept</b></p><p><b>code</b>: LA10418-4</p><p><b>display</b>: Sister</p></blockquote><blockquote><p><b>concept</b></p><p><b>code</b>: LA10419-2</p><p><b>display</b>: Nephew</p></blockquote><blockquote><p><b>concept</b></p><p><b>code</b>: LA10420-0</p><p><b>display</b>: Niece</p></blockquote><blockquote><p><b>concept</b></p><p><b>code</b>: LA10421-8</p><p><b>display</b>: Paternal Aunt</p></blockquote><blockquote><p><b>concept</b></p><p><b>code</b>: LA10422-6</p><p><b>display</b>: Paternal Cousin</p></blockquote><blockquote><p><b>concept</b></p><p><b>code</b>: LA10423-4</p><p><b>display</b>: Paternal Grandfather</p></blockquote><blockquote><p><b>concept</b></p><p><b>code</b>: LA10424-2</p><p><b>display</b>: Paternal Grandmother</p></blockquote><blockquote><p><b>concept</b></p><p><b>code</b>: LA10425-9</p><p><b>display</b>: Paternal Uncle</p></blockquote><blockquote><p><b>concept</b></p><p><b>code</b>: LA10426-7</p><p><b>display</b>: Son</p></blockquote></blockquote></blockquote></div>"
        },
        "url": "http://details.loinc.org/AnswerList/LL621-4",
        "name": "USSG-FHT relationship",
        "status": "active",
        "publisher": "Regenstrief Institute, Inc and the LOINC Committee",
        "description": "Family history tool relationship to patient",
        "immutable": true,
        "copyright": "Refer to https://loinc.org/terms-of-use",
        "extensible": false,
        "compose": {
          "include": [
            {
              "system": "http://loinc.org",
              "concept": [
                {
                  "code": "LA10405-1",
                  "display": "Daughter"
                },
                {
                  "code": "LA10406-9",
                  "display": "Granddaughter"
                },
                {
                  "code": "LA10407-7",
                  "display": "Grandson"
                },
                {
                  "code": "LA10408-5",
                  "display": "Half-brother"
                },
                {
                  "code": "LA10409-3",
                  "display": "Half-sister"
                },
                {
                  "code": "LA10410-1",
                  "display": "Maternal Aunt"
                },
                {
                  "code": "LA10411-9",
                  "display": "Maternal Cousin"
                },
                {
                  "code": "LA10412-7",
                  "display": "Maternal Grandfather"
                },
                {
                  "code": "LA10413-5",
                  "display": "Maternal Grandmother"
                },
                {
                  "code": "LA10414-3",
                  "display": "Maternal Uncle"
                },
                {
                  "code": "LA10415-0",
                  "display": "Brother"
                },
                {
                  "code": "LA10416-8",
                  "display": "Father"
                },
                {
                  "code": "LA10417-6",
                  "display": "Mother"
                },
                {
                  "code": "LA10418-4",
                  "display": "Sister"
                },
                {
                  "code": "LA10419-2",
                  "display": "Nephew"
                },
                {
                  "code": "LA10420-0",
                  "display": "Niece"
                },
                {
                  "code": "LA10421-8",
                  "display": "Paternal Aunt"
                },
                {
                  "code": "LA10422-6",
                  "display": "Paternal Cousin"
                },
                {
                  "code": "LA10423-4",
                  "display": "Paternal Grandfather"
                },
                {
                  "code": "LA10424-2",
                  "display": "Paternal Grandmother"
                },
                {
                  "code": "LA10425-9",
                  "display": "Paternal Uncle"
                },
                {
                  "code": "LA10426-7",
                  "display": "Son"
                }
              ]
            }
          ]
        }
      },
      "request": {
        "method": "PUT",
        "url": "http://hl7.org/fhir/us/sdc/ValueSet/LL621-4"
      }
    },
    {
      "fullUrl": "http://hl7.org/fhir/us/sdc/ValueSet/LL624-8",
      "resource": {
        "resourceType": "ValueSet",
        "id": "LL624-8",
        "meta": {
          "profile": [
            "http://hl7.org/fhir/us/sdc/StructureDefinition/sdc-valueset"
          ]
        },
        "text": {
          "status": "generated",
          "div": "<div xmlns=\"http://www.w3.org/1999/xhtml\"><p><b>Generated Narrative with Details</b></p><p><b>id</b>: LL624-8</p><p><b>meta</b>: </p><p><b>url</b>: <a>http://details.loinc.org/AnswerList/LL624-8</a></p><p><b>name</b>: USSG-FHT living</p><p><b>status</b>: active</p><p><b>publisher</b>: Regenstrief Institute, Inc and the LOINC Committee</p><p><b>description</b>: Family history tool living</p><p><b>immutable</b>: true</p><p><b>copyright</b>: Refer to https://loinc.org/terms-of-use</p><p><b>extensible</b>: false</p><blockquote><p><b>compose</b></p><blockquote><p><b>include</b></p><p><b>system</b>: <a>http://loinc.org</a></p><blockquote><p><b>concept</b></p><p><b>code</b>: LA33-6</p><p><b>display</b>: Yes</p></blockquote><blockquote><p><b>concept</b></p><p><b>code</b>: LA32-8</p><p><b>display</b>: No</p></blockquote><blockquote><p><b>concept</b></p><p><b>code</b>: LA4489-6</p><p><b>display</b>: Unknown</p></blockquote></blockquote></blockquote></div>"
        },
        "url": "http://details.loinc.org/AnswerList/LL624-8",
        "name": "USSG-FHT living",
        "status": "active",
        "publisher": "Regenstrief Institute, Inc and the LOINC Committee",
        "description": "Family history tool living",
        "immutable": true,
        "copyright": "Refer to https://loinc.org/terms-of-use",
        "extensible": false,
        "compose": {
          "include": [
            {
              "system": "http://loinc.org",
              "concept": [
                {
                  "code": "LA33-6",
                  "display": "Yes"
                },
                {
                  "code": "LA32-8",
                  "display": "No"
                },
                {
                  "code": "LA4489-6",
                  "display": "Unknown"
                }
              ]
            }
          ]
        }
      },
      "request": {
        "method": "PUT",
        "url": "http://hl7.org/fhir/us/sdc/ValueSet/LL624-8"
      }
    },
    {
      "fullUrl": "http://hl7.org/fhir/us/sdc/ValueSet/LL627-1",
      "resource": {
        "resourceType": "ValueSet",
        "id": "LL627-1",
        "meta": {
          "profile": [
            "http://hl7.org/fhir/us/sdc/StructureDefinition/sdc-valueset"
          ]
        },
        "text": {
          "status": "generated",
          "div": "<div xmlns=\"http://www.w3.org/1999/xhtml\"><p><b>Generated Narrative with Details</b></p><p><b>id</b>: LL627-1</p><p><b>meta</b>: </p><p><b>url</b>: <a>http://details.loinc.org/AnswerList/LL627-1</a></p><p><b>name</b>: USSG-FHT diseases &amp; cause of death</p><p><b>status</b>: active</p><p><b>publisher</b>: Regenstrief Institute, Inc and the LOINC Committee</p><p><b>description</b>: Family history tool diseases and cause of death</p><p><b>immutable</b>: true</p><p><b>copyright</b>: Refer to https://loinc.org/terms-of-use</p><p><b>extensible</b>: false</p><blockquote><p><b>compose</b></p><blockquote><p><b>include</b></p><p><b>system</b>: <a>http://loinc.org</a></p><blockquote><p><b>concept</b></p><p><b>code</b>: LA10533-0</p><p><b>display</b>: Blood Clots</p></blockquote><blockquote><p><b>concept</b></p><p><b>code</b>: LA10572-8</p><p><b>display</b>: -- Blood Clot in Leg</p></blockquote><blockquote><p><b>concept</b></p><p><b>code</b>: LA10573-6</p><p><b>display</b>: -- Blood Clot in Lungs</p></blockquote><blockquote><p><b>concept</b></p><p><b>code</b>: LA10524-9</p><p><b>display</b>: Cancer</p></blockquote><blockquote><p><b>concept</b></p><p><b>code</b>: LA10549-6</p><p><b>display</b>: -- Bone</p></blockquote><blockquote><p><b>concept</b></p><p><b>code</b>: LA10536-3</p><p><b>display</b>: -- Breast Cancer</p></blockquote><blockquote><p><b>concept</b></p><p><b>code</b>: LA10537-1</p><p><b>display</b>: -- Colon Cancer</p></blockquote><blockquote><p><b>concept</b></p><p><b>code</b>: LA10548-8</p><p><b>display</b>: -- Esophageal Cancer</p></blockquote><blockquote><p><b>concept</b></p><p><b>code</b>: LA10547-0</p><p><b>display</b>: -- Gastric Cancer</p></blockquote><blockquote><p><b>concept</b></p><p><b>code</b>: LA10541-3</p><p><b>display</b>: -- Kidney Cancer</p></blockquote><blockquote><p><b>concept</b></p><p><b>code</b>: LA10545-4</p><p><b>display</b>: -- Leukemia</p></blockquote><blockquote><p><b>concept</b></p><p><b>code</b>: LA10542-1</p><p><b>display</b>: -- Lung Cancer</p></blockquote><blockquote><p><b>concept</b></p><p><b>code</b>: LA10546-2</p><p><b>display</b>: -- Muscle Cancer</p></blockquote><blockquote><p><b>concept</b></p><p><b>code</b>: LA10539-7</p><p><b>display</b>: -- Ovarian Cancer</p></blockquote><blockquote><p><b>concept</b></p><p><b>code</b>: LA10538-9</p><p><b>display</b>: -- Prostate Cancer</p></blockquote><blockquote><p><b>concept</b></p><p><b>code</b>: LA10543-9</p><p><b>display</b>: -- Skin Cancer</p></blockquote><blockquote><p><b>concept</b></p><p><b>code</b>: LA10540-5</p><p><b>display</b>: -- Thyroid Cancer</p></blockquote><blockquote><p><b>concept</b></p><p><b>code</b>: LA10544-7</p><p><b>display</b>: -- Uterine Cancer</p></blockquote><blockquote><p><b>concept</b></p><p><b>code</b>: LA10550-4</p><p><b>display</b>: -- Other Cancer</p></blockquote><blockquote><p><b>concept</b></p><p><b>code</b>: LA10529-8</p><p><b>display</b>: Diabetes</p></blockquote><blockquote><p><b>concept</b></p><p><b>code</b>: LA10551-2</p><p><b>display</b>: -- Diabetes Type 1</p></blockquote><blockquote><p><b>concept</b></p><p><b>code</b>: LA10552-0</p><p><b>display</b>: -- Diabetes Type 2</p></blockquote><blockquote><p><b>concept</b></p><p><b>code</b>: LA10553-8</p><p><b>display</b>: -- Gestational Diabetes</p></blockquote><blockquote><p><b>concept</b></p><p><b>code</b>: LA10532-2</p><p><b>display</b>: Gastrointestinal Disease</p></blockquote><blockquote><p><b>concept</b></p><p><b>code</b>: LA10554-6</p><p><b>display</b>: -- Crohn's Disease</p></blockquote><blockquote><p><b>concept</b></p><p><b>code</b>: LA10555-3</p><p><b>display</b>: -- Irritable Bowel Syndrome</p></blockquote><blockquote><p><b>concept</b></p><p><b>code</b>: LA10556-1</p><p><b>display</b>: -- Ulceritive Colitis</p></blockquote><blockquote><p><b>concept</b></p><p><b>code</b>: LA10557-9</p><p><b>display</b>: -- Colon Polyps</p></blockquote><blockquote><p><b>concept</b></p><p><b>code</b>: LA10523-1</p><p><b>display</b>: Heart Disease</p></blockquote><blockquote><p><b>concept</b></p><p><b>code</b>: LA10558-7</p><p><b>display</b>: -- Heart Attack</p></blockquote><blockquote><p><b>concept</b></p><p><b>code</b>: LA10526-4</p><p><b>display</b>: High Cholesterol/Hyperlipidemia</p></blockquote><blockquote><p><b>concept</b></p><p><b>code</b>: LA7444-8</p><p><b>display</b>: Hypertension</p></blockquote><blockquote><p><b>concept</b></p><p><b>code</b>: LA10528-0</p><p><b>display</b>: Kidney Disease</p></blockquote><blockquote><p><b>concept</b></p><p><b>code</b>: LA10565-2</p><p><b>display</b>: -- Cystic Kidney Disease</p></blockquote><blockquote><p><b>concept</b></p><p><b>code</b>: LA10566-0</p><p><b>display</b>: -- Kidney Disease Present From Birth</p></blockquote><blockquote><p><b>concept</b></p><p><b>code</b>: LA10567-8</p><p><b>display</b>: -- Nephrosis</p></blockquote><blockquote><p><b>concept</b></p><p><b>code</b>: LA10568-6</p><p><b>display</b>: -- Nephritis</p></blockquote><blockquote><p><b>concept</b></p><p><b>code</b>: LA10569-4</p><p><b>display</b>: -- Nephrotic Syndrome</p></blockquote><blockquote><p><b>concept</b></p><p><b>code</b>: LA10570-2</p><p><b>display</b>: -- Diabetic Kidney Disease</p></blockquote><blockquote><p><b>concept</b></p><p><b>code</b>: LA10571-0</p><p><b>display</b>: -- Other/Unknown</p></blockquote><blockquote><p><b>concept</b></p><p><b>code</b>: LA10531-4</p><p><b>display</b>: Lung Disease</p></blockquote><blockquote><p><b>concept</b></p><p><b>code</b>: LA10559-5</p><p><b>display</b>: -- COPD</p></blockquote><blockquote><p><b>concept</b></p><p><b>code</b>: LA10560-3</p><p><b>display</b>: -- Chronic Bronchitis</p></blockquote><blockquote><p><b>concept</b></p><p><b>code</b>: LA10561-1</p><p><b>display</b>: -- Emphysema</p></blockquote><blockquote><p><b>concept</b></p><p><b>code</b>: LA10562-9</p><p><b>display</b>: -- Chronic Lower Respiratory Disease</p></blockquote><blockquote><p><b>concept</b></p><p><b>code</b>: LA10563-7</p><p><b>display</b>: -- Influenza/Pneumonia</p></blockquote><blockquote><p><b>concept</b></p><p><b>code</b>: LA10564-5</p><p><b>display</b>: -- Asthma</p></blockquote><blockquote><p><b>concept</b></p><p><b>code</b>: LA10590-0</p><p><b>display</b>: Neurological Disorders</p></blockquote><blockquote><p><b>concept</b></p><p><b>code</b>: LA10527-2</p><p><b>display</b>: Osteoporosis</p></blockquote><blockquote><p><b>concept</b></p><p><b>code</b>: LA10535-5</p><p><b>display</b>: Psychological Disorders</p></blockquote><blockquote><p><b>concept</b></p><p><b>code</b>: LA10574-4</p><p><b>display</b>: -- Anxiety</p></blockquote><blockquote><p><b>concept</b></p><p><b>code</b>: LA10575-1</p><p><b>display</b>: -- Bipolar/Manic Depressive Disorder</p></blockquote><blockquote><p><b>concept</b></p><p><b>code</b>: LA10576-9</p><p><b>display</b>: -- Depression</p></blockquote><blockquote><p><b>concept</b></p><p><b>code</b>: LA10577-7</p><p><b>display</b>: -- Attention Deficit Hyper Activity</p></blockquote><blockquote><p><b>concept</b></p><p><b>code</b>: LA10578-5</p><p><b>display</b>: -- Autism</p></blockquote><blockquote><p><b>concept</b></p><p><b>code</b>: LA10579-3</p><p><b>display</b>: -- Personality Disorder</p></blockquote><blockquote><p><b>concept</b></p><p><b>code</b>: LA10580-1</p><p><b>display</b>: -- Eating Disorder</p></blockquote><blockquote><p><b>concept</b></p><p><b>code</b>: LA10581-9</p><p><b>display</b>: -- Obsessive Compulsive Disorder</p></blockquote><blockquote><p><b>concept</b></p><p><b>code</b>: LA10582-7</p><p><b>display</b>: -- Panic Disorder</p></blockquote><blockquote><p><b>concept</b></p><p><b>code</b>: LA10583-5</p><p><b>display</b>: -- Post Traumatic Stress Disorder</p></blockquote><blockquote><p><b>concept</b></p><p><b>code</b>: LA10584-3</p><p><b>display</b>: -- Schizophrenia</p></blockquote><blockquote><p><b>concept</b></p><p><b>code</b>: LA10585-0</p><p><b>display</b>: -- Social Phobia</p></blockquote><blockquote><p><b>concept</b></p><p><b>code</b>: LA10586-8</p><p><b>display</b>: -- Dementia</p></blockquote><blockquote><p><b>concept</b></p><p><b>code</b>: LA10591-8</p><p><b>display</b>: Septicemia</p></blockquote><blockquote><p><b>concept</b></p><p><b>code</b>: LA10522-3</p><p><b>display</b>: Stroke/Brain Attack</p></blockquote><blockquote><p><b>concept</b></p><p><b>code</b>: LA10530-6</p><p><b>display</b>: Sudden Infant Death Syndrome</p></blockquote><blockquote><p><b>concept</b></p><p><b>code</b>: LA10595-9</p><p><b>display</b>: Cause of Death</p></blockquote><blockquote><p><b>concept</b></p><p><b>code</b>: LA10587-6</p><p><b>display</b>: -- Suicide</p></blockquote><blockquote><p><b>concept</b></p><p><b>code</b>: LA10588-4</p><p><b>display</b>: -- Accidental Death</p></blockquote><blockquote><p><b>concept</b></p><p><b>code</b>: LA10589-2</p><p><b>display</b>: -- Other/Unexpected</p></blockquote></blockquote></blockquote></div>"
        },
        "url": "http://details.loinc.org/AnswerList/LL627-1",
        "name": "USSG-FHT diseases & cause of death",
        "status": "active",
        "publisher": "Regenstrief Institute, Inc and the LOINC Committee",
        "description": "Family history tool diseases and cause of death",
        "immutable": true,
        "copyright": "Refer to https://loinc.org/terms-of-use",
        "extensible": false,
        "compose": {
          "include": [
            {
              "system": "http://loinc.org",
              "concept": [
                {
                  "code": "LA10533-0",
                  "display": "Blood Clots"
                },
                {
                  "code": "LA10572-8",
                  "display": "-- Blood Clot in Leg"
                },
                {
                  "code": "LA10573-6",
                  "display": "-- Blood Clot in Lungs"
                },
                {
                  "code": "LA10524-9",
                  "display": "Cancer"
                },
                {
                  "code": "LA10549-6",
                  "display": "-- Bone"
                },
                {
                  "code": "LA10536-3",
                  "display": "-- Breast Cancer"
                },
                {
                  "code": "LA10537-1",
                  "display": "-- Colon Cancer"
                },
                {
                  "code": "LA10548-8",
                  "display": "-- Esophageal Cancer"
                },
                {
                  "code": "LA10547-0",
                  "display": "-- Gastric Cancer"
                },
                {
                  "code": "LA10541-3",
                  "display": "-- Kidney Cancer"
                },
                {
                  "code": "LA10545-4",
                  "display": "-- Leukemia"
                },
                {
                  "code": "LA10542-1",
                  "display": "-- Lung Cancer"
                },
                {
                  "code": "LA10546-2",
                  "display": "-- Muscle Cancer"
                },
                {
                  "code": "LA10539-7",
                  "display": "-- Ovarian Cancer"
                },
                {
                  "code": "LA10538-9",
                  "display": "-- Prostate Cancer"
                },
                {
                  "code": "LA10543-9",
                  "display": "-- Skin Cancer"
                },
                {
                  "code": "LA10540-5",
                  "display": "-- Thyroid Cancer"
                },
                {
                  "code": "LA10544-7",
                  "display": "-- Uterine Cancer"
                },
                {
                  "code": "LA10550-4",
                  "display": "-- Other Cancer"
                },
                {
                  "code": "LA10529-8",
                  "display": "Diabetes"
                },
                {
                  "code": "LA10551-2",
                  "display": "-- Diabetes Type 1"
                },
                {
                  "code": "LA10552-0",
                  "display": "-- Diabetes Type 2"
                },
                {
                  "code": "LA10553-8",
                  "display": "-- Gestational Diabetes"
                },
                {
                  "code": "LA10532-2",
                  "display": "Gastrointestinal Disease"
                },
                {
                  "code": "LA10554-6",
                  "display": "-- Crohn's Disease"
                },
                {
                  "code": "LA10555-3",
                  "display": "-- Irritable Bowel Syndrome"
                },
                {
                  "code": "LA10556-1",
                  "display": "-- Ulceritive Colitis"
                },
                {
                  "code": "LA10557-9",
                  "display": "-- Colon Polyps"
                },
                {
                  "code": "LA10523-1",
                  "display": "Heart Disease"
                },
                {
                  "code": "LA10558-7",
                  "display": "-- Heart Attack"
                },
                {
                  "code": "LA10526-4",
                  "display": "High Cholesterol/Hyperlipidemia"
                },
                {
                  "code": "LA7444-8",
                  "display": "Hypertension"
                },
                {
                  "code": "LA10528-0",
                  "display": "Kidney Disease"
                },
                {
                  "code": "LA10565-2",
                  "display": "-- Cystic Kidney Disease"
                },
                {
                  "code": "LA10566-0",
                  "display": "-- Kidney Disease Present From Birth"
                },
                {
                  "code": "LA10567-8",
                  "display": "-- Nephrosis"
                },
                {
                  "code": "LA10568-6",
                  "display": "-- Nephritis"
                },
                {
                  "code": "LA10569-4",
                  "display": "-- Nephrotic Syndrome"
                },
                {
                  "code": "LA10570-2",
                  "display": "-- Diabetic Kidney Disease"
                },
                {
                  "code": "LA10571-0",
                  "display": "-- Other/Unknown"
                },
                {
                  "code": "LA10531-4",
                  "display": "Lung Disease"
                },
                {
                  "code": "LA10559-5",
                  "display": "-- COPD"
                },
                {
                  "code": "LA10560-3",
                  "display": "-- Chronic Bronchitis"
                },
                {
                  "code": "LA10561-1",
                  "display": "-- Emphysema"
                },
                {
                  "code": "LA10562-9",
                  "display": "-- Chronic Lower Respiratory Disease"
                },
                {
                  "code": "LA10563-7",
                  "display": "-- Influenza/Pneumonia"
                },
                {
                  "code": "LA10564-5",
                  "display": "-- Asthma"
                },
                {
                  "code": "LA10590-0",
                  "display": "Neurological Disorders"
                },
                {
                  "code": "LA10527-2",
                  "display": "Osteoporosis"
                },
                {
                  "code": "LA10535-5",
                  "display": "Psychological Disorders"
                },
                {
                  "code": "LA10574-4",
                  "display": "-- Anxiety"
                },
                {
                  "code": "LA10575-1",
                  "display": "-- Bipolar/Manic Depressive Disorder"
                },
                {
                  "code": "LA10576-9",
                  "display": "-- Depression"
                },
                {
                  "code": "LA10577-7",
                  "display": "-- Attention Deficit Hyper Activity"
                },
                {
                  "code": "LA10578-5",
                  "display": "-- Autism"
                },
                {
                  "code": "LA10579-3",
                  "display": "-- Personality Disorder"
                },
                {
                  "code": "LA10580-1",
                  "display": "-- Eating Disorder"
                },
                {
                  "code": "LA10581-9",
                  "display": "-- Obsessive Compulsive Disorder"
                },
                {
                  "code": "LA10582-7",
                  "display": "-- Panic Disorder"
                },
                {
                  "code": "LA10583-5",
                  "display": "-- Post Traumatic Stress Disorder"
                },
                {
                  "code": "LA10584-3",
                  "display": "-- Schizophrenia"
                },
                {
                  "code": "LA10585-0",
                  "display": "-- Social Phobia"
                },
                {
                  "code": "LA10586-8",
                  "display": "-- Dementia"
                },
                {
                  "code": "LA10591-8",
                  "display": "Septicemia"
                },
                {
                  "code": "LA10522-3",
                  "display": "Stroke/Brain Attack"
                },
                {
                  "code": "LA10530-6",
                  "display": "Sudden Infant Death Syndrome"
                },
                {
                  "code": "LA10595-9",
                  "display": "Cause of Death"
                },
                {
                  "code": "LA10587-6",
                  "display": "-- Suicide"
                },
                {
                  "code": "LA10588-4",
                  "display": "-- Accidental Death"
                },
                {
                  "code": "LA10589-2",
                  "display": "-- Other/Unexpected"
                }
              ]
            }
          ]
        }
      },
      "request": {
        "method": "PUT",
        "url": "http://hl7.org/fhir/us/sdc/ValueSet/LL627-1"
      }
    }
  ]
}